stair.thisTrialN,stair.stepSize,stair.intensity,thisRow.t,notes,trial.started,fixation.started,grating.started,key_resp.started,fixation.stopped,trial.stopped,corrAns,tilt,key_resp.corr,stair.response,key_resp.rt,grating.stopped,participant,session,date,expName,psychopyVersion,frameRate,expStart
0,2,10,0.0244843,,0.0102955,0.0244843,0.5234688,0.5234688,0.5407571,0.7802281,left,-10,1,1,0.2373214,,166269,1,2024-09-11_23h56.16.550,stair adaptive,2024.1.5,None,2024-09-11 23h56.23.966212 +0530
1,2,8,0.7896372,,0.7803476,0.7896372,1.2909919,1.2909919,1.2909919,1.4289965,left,-8,1,1,0.1231942,,166269,1,2024-09-11_23h56.16.550,stair adaptive,2024.1.5,None,2024-09-11 23h56.23.966212 +0530
2,1,6,1.4399982,,1.4291099,1.4399982,1.9399419,1.9399419,1.9399419,2.0773316,right,6,0,0,0.1361003,,166269,1,2024-09-11_23h56.16.550,stair adaptive,2024.1.5,None,2024-09-11 23h56.23.966212 +0530
3,1,7,2.0893342,,2.0774125,2.0893342,2.5892307,2.5892307,2.5892307,2.6100604,left,-7,1,1,0.0083509,,166269,1,2024-09-11_23h56.16.550,stair adaptive,2024.1.5,None,2024-09-11 23h56.23.966212 +0530
4,1,7,2.6220686,,2.6101417,2.6220686,3.1223906,3.1223906,3.1223906,3.2907065,left,-7,1,1,0.1587736,,166269,1,2024-09-11_23h56.16.550,stair adaptive,2024.1.5,None,2024-09-11 23h56.23.966212 +0530
5,1,7,3.3052329,,3.2907574,3.3052329,3.8044268,3.8044268,3.8044268,4.3578072,right,7,0,0,0.5433889,4.104772,166269,1,2024-09-11_23h56.16.550,stair adaptive,2024.1.5,None,2024-09-11 23h56.23.966212 +0530
6,1,8,4.370622,,4.3578856,4.370622,4.8707265,4.8707265,4.8707265,5.2899499,right,8,0,0,0.4047874,5.170041,166269,1,2024-09-11_23h56.16.550,stair adaptive,2024.1.5,None,2024-09-11 23h56.23.966212 +0530
7,1,9,5.3030744,,5.2900199,5.3030744,5.8034586,5.8034586,5.8034586,6.1262304,right,9,0,0,0.3205238,6.1025173,166269,1,2024-09-11_23h56.16.550,stair adaptive,2024.1.5,None,2024-09-11 23h56.23.966212 +0530
8,1,10,6.1361196,,6.1263474,6.1361196,6.6355869,6.6355869,6.6355869,7.0574352,right,10,1,1,0.4071119,6.9355029,166269,1,2024-09-11_23h56.16.550,stair adaptive,2024.1.5,None,2024-09-11 23h56.23.966212 +0530
9,1,10,7.0686142,,7.057515,7.0686142,7.5686518,7.5686518,7.5686518,7.9880188,right,10,1,1,0.4037534,7.8679902,166269,1,2024-09-11_23h56.16.550,stair adaptive,2024.1.5,None,2024-09-11 23h56.23.966212 +0530
10,1,10,8.0010566,,7.9881011,8.0010566,8.5008322,8.5008322,8.5008322,8.6381308,left,-10,0,0,0.1339871,,166269,1,2024-09-11_23h56.16.550,stair adaptive,2024.1.5,None,2024-09-11 23h56.23.966212 +0530
11,1,11,8.6502064,,8.638202,8.6502064,9.1503342,9.1503342,9.1503342,10.4866014,left,-11,0,0,1.3326739,9.4498586,166269,1,2024-09-11_23h56.16.550,stair adaptive,2024.1.5,None,2024-09-11 23h56.23.966212 +0530
12,1,12,10.4991035,,10.4866884,10.4991035,10.998821,10.998821,10.998821,12.4000829,left,-12,0,0,1.3972405,11.298919,166269,1,2024-09-11_23h56.16.550,stair adaptive,2024.1.5,None,2024-09-11 23h56.23.966212 +0530
13,1,13,12.4144554,,12.4001414,12.4144554,12.9146078,12.9146078,12.9146078,13.301095,left,-13,0,0,0.3806105,13.213506,166269,1,2024-09-11_23h56.16.550,stair adaptive,2024.1.5,None,2024-09-11 23h56.23.966212 +0530
14,1,14,13.3135711,,13.3011861,13.3135711,13.8130571,13.8130571,13.8130571,14.40175,left,-14,0,0,0.5782554,14.1126577,166269,1,2024-09-11_23h56.16.550,stair adaptive,2024.1.5,None,2024-09-11 23h56.23.966212 +0530
15,1,15,14.4122109,,14.401835,14.4122109,14.9120084,14.9120084,14.9120084,15.2672181,left,-15,0,0,0.3483721,15.2117761,166269,1,2024-09-11_23h56.16.550,stair adaptive,2024.1.5,None,2024-09-11 23h56.23.966212 +0530
16,1,16,15.2788853,,15.2673058,15.2788853,15.778175,15.778175,15.778175,16.1151714,left,-16,0,0,0.3344089,16.0778984,166269,1,2024-09-11_23h56.16.550,stair adaptive,2024.1.5,None,2024-09-11 23h56.23.966212 +0530
17,1,17,16.1277384,,16.1152342,16.1277384,16.6273402,16.6273402,16.6273402,17.0145153,left,-17,0,0,0.3785355,16.9270789,166269,1,2024-09-11_23h56.16.550,stair adaptive,2024.1.5,None,2024-09-11 23h56.23.966212 +0530
18,1,18,17.0267306,,17.0145926,17.0267306,17.5266695,17.5266695,17.5266695,17.8959133,left,-18,0,0,0.3547141,17.8264359,166269,1,2024-09-11_23h56.16.550,stair adaptive,2024.1.5,None,2024-09-11 23h56.23.966212 +0530
19,1,19,17.9096622,,17.8959761,17.9096622,18.4098816,18.4098816,18.4098816,19.5290399,right,19,1,1,1.1146967,18.7089113,166269,1,2024-09-11_23h56.16.550,stair adaptive,2024.1.5,None,2024-09-11 23h56.23.966212 +0530
20,1,19,19.5417024,,19.5291053,19.5417024,20.0417432,20.0417432,20.0417432,20.1461664,right,19,1,1,0.1020784,,166269,1,2024-09-11_23h56.16.550,stair adaptive,2024.1.5,None,2024-09-11 23h56.23.966212 +0530
21,1,19,20.1576107,,20.1462535,20.1576107,20.6580253,20.6580253,20.6580253,20.7264558,right,19,0,0,0.0597446,,166269,1,2024-09-11_23h56.16.550,stair adaptive,2024.1.5,None,2024-09-11 23h56.23.966212 +0530
22,1,20,20.7408379,,20.7265079,20.7408379,21.2406098,21.2406098,21.2406098,21.2769805,left,-20,1,1,0.0299313,,166269,1,2024-09-11_23h56.16.550,stair adaptive,2024.1.5,None,2024-09-11 23h56.23.966212 +0530
23,1,20,21.2899973,,21.2770416,21.2899973,21.7900189,21.7900189,21.7900189,21.8926525,left,-20,0,0,0.0911279,,166269,1,2024-09-11_23h56.16.550,stair adaptive,2024.1.5,None,2024-09-11 23h56.23.966212 +0530
24,1,20,21.9063877,,21.8927101,21.9063877,22.4062773,22.4062773,22.4062773,22.4261176,right,20,1,1,0.0077296,,166269,1,2024-09-11_23h56.16.550,stair adaptive,2024.1.5,None,2024-09-11 23h56.23.966212 +0530
25,1,20,22.4393311,,22.4261941,22.4393311,22.939181,22.939181,22.939181,23.2442438,left,-20,0,0,0.293855,23.2388311,166269,1,2024-09-11_23h56.16.550,stair adaptive,2024.1.5,None,2024-09-11 23h56.23.966212 +0530
26,1,20,23.2558167,,23.2443642,23.2558167,23.7549031,23.7549031,23.7549031,23.9583374,left,-20,1,1,0.1976349,,166269,1,2024-09-11_23h56.16.550,stair adaptive,2024.1.5,None,2024-09-11 23h56.23.966212 +0530
27,1,20,23.9712935,,23.9584134,23.9712935,24.4714751,24.4714751,24.4714751,24.8065814,right,20,1,1,0.3333312,24.7706045,166269,1,2024-09-11_23h56.16.550,stair adaptive,2024.1.5,None,2024-09-11 23h56.23.966212 +0530
28,1,20,24.8204873,,24.8066558,24.8204873,25.3199863,25.3199863,25.3199863,25.4063452,right,20,1,1,0.0787027,,166269,1,2024-09-11_23h56.16.550,stair adaptive,2024.1.5,None,2024-09-11 23h56.23.966212 +0530
29,1,19,25.4203499,,25.4064072,25.4203499,25.9198633,25.9198633,25.9198633,26.2242178,left,-19,1,1,0.287665,26.219739,166269,1,2024-09-11_23h56.16.550,stair adaptive,2024.1.5,None,2024-09-11 23h56.23.966212 +0530
30,0.5,19,26.2367208,,26.2243492,26.2367208,26.7362014,26.7362014,26.7362014,26.8053494,right,19,0,0,0.0566213,,166269,1,2024-09-11_23h56.16.550,stair adaptive,2024.1.5,None,2024-09-11 23h56.23.966212 +0530
31,0.5,19.5,26.8192645,,26.8054072,26.8192645,27.3183819,27.3183819,27.3183819,27.3884558,left,-19.5,1,1,0.0678743,,166269,1,2024-09-11_23h56.16.550,stair adaptive,2024.1.5,None,2024-09-11 23h56.23.966212 +0530
32,0.5,19.5,27.4015421,,27.3885099,27.4015421,27.9016666,27.9016666,27.9016666,28.039,right,19.5,0,0,0.1325315,,166269,1,2024-09-11_23h56.16.550,stair adaptive,2024.1.5,None,2024-09-11 23h56.23.966212 +0530
33,0.5,20,28.051397,,28.0390679,28.051397,28.5516065,28.5516065,28.5516065,28.620491,right,20,0,0,0.0670772,,166269,1,2024-09-11_23h56.16.550,stair adaptive,2024.1.5,None,2024-09-11 23h56.23.966212 +0530
34,0.5,20,28.6339271,,28.6205732,28.6339271,29.1337005,29.1337005,29.1337005,29.319338,right,20,0,0,0.1823944,,166269,1,2024-09-11_23h56.16.550,stair adaptive,2024.1.5,None,2024-09-11 23h56.23.966212 +0530
35,0.5,20,29.3333538,,29.3193971,29.3333538,29.8337531,29.8337531,29.8337531,29.9404983,left,-20,1,1,0.1038119,,166269,1,2024-09-11_23h56.16.550,stair adaptive,2024.1.5,None,2024-09-11 23h56.23.966212 +0530
36,0.5,20,29.9499415,,29.9405893,29.9499415,30.4494904,30.4494904,30.4494904,30.4710298,right,20,0,0,0.0201798,,166269,1,2024-09-11_23h56.16.550,stair adaptive,2024.1.5,None,2024-09-11 23h56.23.966212 +0530
37,0.5,20,30.4827602,,30.4711146,30.4827602,30.9825781,30.9825781,30.9825781,31.1188187,right,20,0,0,0.1255909,,166269,1,2024-09-11_23h56.16.550,stair adaptive,2024.1.5,None,2024-09-11 23h56.23.966212 +0530
38,0.5,20,31.1318631,,31.1188782,31.1318631,31.6317603,31.6317603,31.6317603,31.8676143,left,-20,1,1,0.2251436,,166269,1,2024-09-11_23h56.16.550,stair adaptive,2024.1.5,None,2024-09-11 23h56.23.966212 +0530
39,0.5,20,31.881505,,31.8676739,31.881505,32.3811089,32.3811089,32.3811089,32.4017021,right,20,0,0,0.0074528,,166269,1,2024-09-11_23h56.16.550,stair adaptive,2024.1.5,None,2024-09-11 23h56.23.966212 +0530
40,0.5,20,32.4143452,,32.401767,32.4143452,32.9141522,32.9141522,32.9141522,33.0040955,right,20,0,0,0.0866043,,166269,1,2024-09-11_23h56.16.550,stair adaptive,2024.1.5,None,2024-09-11 23h56.23.966212 +0530
41,0.5,20,33.0142338,,33.0042227,33.0142338,33.5138986,33.5138986,33.5138986,33.5852072,right,20,0,0,0.0654046,,166269,1,2024-09-11_23h56.16.550,stair adaptive,2024.1.5,None,2024-09-11 23h56.23.966212 +0530
42,0.5,20,33.5971526,,33.5852908,33.5971526,34.0967819,34.0967819,34.0967819,34.1995519,right,20,0,0,0.100059,,166269,1,2024-09-11_23h56.16.550,stair adaptive,2024.1.5,None,2024-09-11 23h56.23.966212 +0530
43,0.5,20,34.2131033,,34.1996294,34.2131033,34.7127061,34.7127061,34.7127061,34.8195602,left,-20,1,1,0.0902244,,166269,1,2024-09-11_23h56.16.550,stair adaptive,2024.1.5,None,2024-09-11 23h56.23.966212 +0530
44,0.5,20,34.8295498,,34.8196857,34.8295498,35.328737,35.328737,35.3451811,35.5148182,right,20,0,0,0.1824271,,166269,1,2024-09-11_23h56.16.550,stair adaptive,2024.1.5,None,2024-09-11 23h56.23.966212 +0530
45,0.5,20,35.5285376,,35.5148748,35.5285376,36.0282005,36.0282005,36.0282005,36.0653729,right,20,0,0,0.0212332,,166269,1,2024-09-11_23h56.16.550,stair adaptive,2024.1.5,None,2024-09-11 23h56.23.966212 +0530
46,0.5,20,36.0781865,,36.0654626,36.0781865,36.5777064,36.5777064,36.5777064,36.7316684,right,20,0,0,0.1503964,,166269,1,2024-09-11_23h56.16.550,stair adaptive,2024.1.5,None,2024-09-11 23h56.23.966212 +0530
47,0.5,20,36.7443385,,36.7317349,36.7443385,37.2438782,37.2438782,37.2438782,37.2800832,left,-20,0,0,0.0245301,,166269,1,2024-09-11_23h56.16.550,stair adaptive,2024.1.5,None,2024-09-11 23h56.23.966212 +0530
48,0.5,20,37.2936975,,37.2801602,37.2936975,37.7932418,37.7932418,37.7932418,38.096439,right,20,0,0,0.291395,38.0933179,166269,1,2024-09-11_23h56.16.550,stair adaptive,2024.1.5,None,2024-09-11 23h56.23.966212 +0530
49,0.5,20,38.1100598,,38.0965075,38.1100598,38.6095735,38.6095735,38.6095735,38.7482277,right,20,0,0,0.1265638,,166269,1,2024-09-11_23h56.16.550,stair adaptive,2024.1.5,None,2024-09-11 23h56.23.966212 +0530
50,0.5,20,38.7599127,,38.7483159,38.7599127,39.2585431,39.2585431,39.2756338,39.4277811,right,20,0,0,0.1617749,,166269,1,2024-09-11_23h56.16.550,stair adaptive,2024.1.5,None,2024-09-11 23h56.23.966212 +0530
51,0.5,20,39.4418056,,39.4278379,39.4418056,39.9424124,39.9424124,39.9424124,40.0945284,left,-20,1,1,0.1436302,,166269,1,2024-09-11_23h56.16.550,stair adaptive,2024.1.5,None,2024-09-11 23h56.23.966212 +0530
52,0.5,20,40.1077782,,40.0945803,40.1077782,40.6078179,40.6078179,40.6078179,40.7766216,right,20,0,0,0.1532004,,166269,1,2024-09-11_23h56.16.550,stair adaptive,2024.1.5,None,2024-09-11 23h56.23.966212 +0530
53,0.5,20,40.7905767,,40.7766762,40.7905767,41.2904801,41.2904801,41.2904801,41.429347,right,20,0,0,0.1281169,,166269,1,2024-09-11_23h56.16.550,stair adaptive,2024.1.5,None,2024-09-11 23h56.23.966212 +0530
54,0.5,20,41.4401743,,41.4294252,41.4401743,41.9398433,41.9398433,41.9398433,42.5086623,left,-20,1,1,0.5564931,42.2395251,166269,1,2024-09-11_23h56.16.550,stair adaptive,2024.1.5,None,2024-09-11 23h56.23.966212 +0530
55,0.5,20,42.5227309,,42.5087195,42.5227309,43.0224603,43.0224603,43.0224603,43.3928727,right,20,1,1,0.363635,43.3219626,166269,1,2024-09-11_23h56.16.550,stair adaptive,2024.1.5,None,2024-09-11 23h56.23.966212 +0530
56,0.5,20,43.4052334,,43.3929442,43.4052334,43.9055689,43.9055689,43.9055689,44.1406614,right,20,0,0,0.2200293,,166269,1,2024-09-11_23h56.16.550,stair adaptive,2024.1.5,None,2024-09-11 23h56.23.966212 +0530
57,0.5,20,44.1546094,,44.1407219,44.1546094,44.6544846,44.6544846,44.6544846,44.8077207,right,20,1,1,0.1519624,,166269,1,2024-09-11_23h56.16.550,stair adaptive,2024.1.5,None,2024-09-11 23h56.23.966212 +0530
58,0.5,20,44.8210395,,44.8077955,44.8210395,45.320681,45.320681,45.320681,45.6571393,right,20,1,1,0.321676,45.6201589,166269,1,2024-09-11_23h56.16.550,stair adaptive,2024.1.5,None,2024-09-11 23h56.23.966212 +0530
59,0.5,20,45.6697991,,45.6572254,45.6697991,46.1698361,46.1698361,46.1698361,46.390233,right,20,1,1,0.2192128,,166269,1,2024-09-11_23h56.16.550,stair adaptive,2024.1.5,None,2024-09-11 23h56.23.966212 +0530
60,0.5,19.5,46.4025947,,46.3902938,46.4025947,46.9023976,46.9023976,46.9023976,47.0396962,left,-19.5,0,0,0.1210089,,166269,1,2024-09-11_23h56.16.550,stair adaptive,2024.1.5,None,2024-09-11 23h56.23.966212 +0530
61,0.5,20,47.0522426,,47.0397767,47.0522426,47.5525471,47.5525471,47.5525471,47.6764056,left,-20,0,0,0.1157248,,166269,1,2024-09-11_23h56.16.550,stair adaptive,2024.1.5,None,2024-09-11 23h56.23.966212 +0530
62,0.5,20,47.6853719,,47.6765013,47.6853719,48.1853049,48.1853049,48.1853049,48.3550923,left,-20,0,0,0.1644706,,166269,1,2024-09-11_23h56.16.550,stair adaptive,2024.1.5,None,2024-09-11 23h56.23.966212 +0530
63,0.5,20,48.367646,,48.3551615,48.367646,48.8677827,48.8677827,48.8677827,49.0215563,right,20,1,1,0.1443103,,166269,1,2024-09-11_23h56.16.550,stair adaptive,2024.1.5,None,2024-09-11 23h56.23.966212 +0530
64,0.5,20,49.0344324,,49.0216456,49.0344324,49.5338119,49.5338119,49.5338119,49.6529021,left,-20,0,0,0.1072778,,166269,1,2024-09-11_23h56.16.550,stair adaptive,2024.1.5,None,2024-09-11 23h56.23.966212 +0530
65,0.5,20,49.6670709,,49.652961,49.6670709,50.1666065,50.1666065,50.1666065,50.2702142,left,-20,0,0,0.0921576,,166269,1,2024-09-11_23h56.16.550,stair adaptive,2024.1.5,None,2024-09-11 23h56.23.966212 +0530
66,0.5,20,50.282775,,50.270301,50.282775,50.7827557,50.7827557,50.7827557,50.8365967,right,20,1,1,0.0400026,,166269,1,2024-09-11_23h56.16.550,stair adaptive,2024.1.5,None,2024-09-11 23h56.23.966212 +0530
67,0.5,20,50.8495619,,50.8367224,50.8495619,51.34965,51.34965,51.34965,51.3697591,right,20,1,1,0.0180004,,166269,1,2024-09-11_23h56.16.550,stair adaptive,2024.1.5,None,2024-09-11 23h56.23.966212 +0530
68,0.5,20,51.3821425,,51.3698409,51.3821425,51.881978,51.881978,51.881978,51.9695378,left,-20,0,0,0.0827655,,166269,1,2024-09-11_23h56.16.550,stair adaptive,2024.1.5,None,2024-09-11 23h56.23.966212 +0530
69,0.5,20,51.9816646,,51.9695911,51.9816646,52.4820492,52.4820492,52.4820492,52.5030193,right,20,1,1,0.0062393,,166269,1,2024-09-11_23h56.16.550,stair adaptive,2024.1.5,None,2024-09-11 23h56.23.966212 +0530
70,0.5,20,52.5147502,,52.5031006,52.5147502,53.0144981,53.0144981,53.0144981,53.0348535,left,-20,0,0,0.0083645,,166269,1,2024-09-11_23h56.16.550,stair adaptive,2024.1.5,None,2024-09-11 23h56.23.966212 +0530
71,0.5,20,53.0471994,,53.0349337,53.0471994,53.5472923,53.5472923,53.5472923,53.6172813,right,20,1,1,0.0647928,,166269,1,2024-09-11_23h56.16.550,stair adaptive,2024.1.5,None,2024-09-11 23h56.23.966212 +0530
72,0.5,20,53.6303316,,53.617362,53.6303316,54.1299984,54.1299984,54.1299984,61.1278123,left,-20,0,0,6.9850257,54.4296757,166269,1,2024-09-11_23h56.16.550,stair adaptive,2024.1.5,None,2024-09-11 23h56.23.966212 +0530
73,0.5,20,61.1404774,,61.1278912,61.1404774,61.6408173,61.6408173,61.6408173,62.142848,right,20,1,1,0.4960673,61.9400661,166269,1,2024-09-11_23h56.16.550,stair adaptive,2024.1.5,None,2024-09-11 23h56.23.966212 +0530
74,0.5,20,62.1570802,,62.1429212,62.1570802,62.6567786,62.6567786,62.6567786,62.6922532,left,-20,1,1,0.0261122,,166269,1,2024-09-11_23h56.16.550,stair adaptive,2024.1.5,None,2024-09-11 23h56.23.966212 +0530
75,0.5,20,62.7064904,,62.6923054,62.7064904,63.2062562,63.2062562,63.2062562,63.325595,right,20,1,1,0.1054617,,166269,1,2024-09-11_23h56.16.550,stair adaptive,2024.1.5,None,2024-09-11 23h56.23.966212 +0530
76,0.5,19.5,63.3390892,,63.3256849,63.3390892,63.8383325,63.8383325,63.8383325,64.0075336,left,-19.5,1,1,0.1605912,,166269,1,2024-09-11_23h56.16.550,stair adaptive,2024.1.5,None,2024-09-11 23h56.23.966212 +0530
77,0.5,19.5,64.0214519,,64.0075841,64.0214519,64.5224771,64.5224771,64.5224771,64.5422146,right,19.5,0,0,0.0091038,,166269,1,2024-09-11_23h56.16.550,stair adaptive,2024.1.5,None,2024-09-11 23h56.23.966212 +0530
78,0.5,20,64.5548266,,64.5422934,64.5548266,65.0543044,65.0543044,65.0543044,65.0948972,right,20,0,0,0.0355915,,166269,1,2024-09-11_23h56.16.550,stair adaptive,2024.1.5,None,2024-09-11 23h56.23.966212 +0530
79,0.5,20,65.1044546,,65.0950005,65.1044546,65.6040051,65.6040051,65.6040051,65.89086,left,-20,0,0,0.2747976,65.9033877,166269,1,2024-09-11_23h56.16.550,stair adaptive,2024.1.5,None,2024-09-11 23h56.23.966212 +0530
80,0.5,20,65.9033877,,65.8909403,65.9033877,66.4032031,66.4032031,66.4032031,66.6728314,left,-20,0,0,None,,166269,1,2024-09-11_23h56.16.550,stair adaptive,2024.1.5,None,2024-09-11 23h56.23.966212 +0530
81,0.5,20,66.6858416,,66.672885,66.6858416,67.1859019,67.1859019,67.1859019,67.2719726,left,-20,1,1,0.0833412,,166269,1,2024-09-11_23h56.16.550,stair adaptive,2024.1.5,None,2024-09-11 23h56.23.966212 +0530
82,0.5,20,67.2862067,,67.2720247,67.2862067,67.7855726,67.7855726,67.7855726,67.8238209,left,-20,1,1,0.036894,,166269,1,2024-09-11_23h56.16.550,stair adaptive,2024.1.5,None,2024-09-11 23h56.23.966212 +0530
83,0.5,20,67.8365761,,67.8239211,67.8365761,68.3349422,68.3349422,68.3511146,68.3541258,left,-20,1,1,0.0092771,,166269,1,2024-09-11_23h56.16.550,stair adaptive,2024.1.5,None,2024-09-11 23h56.23.966212 +0530
84,0.5,19.5,68.368166,,68.3541797,68.368166,68.8681683,68.8681683,68.8681683,69.071956,right,19.5,1,1,0.1899259,,166269,1,2024-09-11_23h56.16.550,stair adaptive,2024.1.5,None,2024-09-11 23h56.23.966212 +0530
85,0.5,19.5,69.084314,,69.0720356,69.084314,69.5836598,69.5836598,69.5836598,69.6364258,right,19.5,1,1,0.0514255,,166269,1,2024-09-11_23h56.16.550,stair adaptive,2024.1.5,None,2024-09-11 23h56.23.966212 +0530
86,0.5,19.5,69.6502306,,69.6364851,69.6502306,70.1502197,70.1502197,70.1502197,70.4213071,right,19.5,0,0,0.2591521,,166269,1,2024-09-11_23h56.16.550,stair adaptive,2024.1.5,None,2024-09-11 23h56.23.966212 +0530
87,0.5,20,70.4333807,,70.4214043,70.4333807,70.9333429,70.9333429,70.9333429,71.1690499,left,-20,1,1,None,,166269,1,2024-09-11_23h56.16.550,stair adaptive,2024.1.5,None,2024-09-11 23h56.23.966212 +0530
88,0.5,20,71.1829272,,71.1691301,71.1829272,71.6825229,71.6825229,71.6825229,71.7858538,right,20,1,1,0.1024508,,166269,1,2024-09-11_23h56.16.550,stair adaptive,2024.1.5,None,2024-09-11 23h56.23.966212 +0530
89,0.5,20,71.798801,,71.7859128,71.798801,72.298972,72.298972,72.298972,72.3531229,right,20,1,1,0.0413302,,166269,1,2024-09-11_23h56.16.550,stair adaptive,2024.1.5,None,2024-09-11 23h56.23.966212 +0530
90,0.5,19.5,72.3652435,,72.3532162,72.3652435,72.8650216,72.8650216,72.8650216,72.8867927,left,-19.5,0,0,0.0199699,,166269,1,2024-09-11_23h56.16.550,stair adaptive,2024.1.5,None,2024-09-11 23h56.23.966212 +0530
91,0.5,20,72.8984364,,72.8868767,72.8984364,73.3980179,73.3980179,73.3980179,73.4356391,right,20,1,1,0.0301999,,166269,1,2024-09-11_23h56.16.550,stair adaptive,2024.1.5,None,2024-09-11 23h56.23.966212 +0530
92,0.5,20,73.4477614,,73.4357306,73.4477614,73.9470506,73.9470506,73.9470506,73.9829014,left,-20,0,0,0.0245251,,166269,1,2024-09-11_23h56.16.550,stair adaptive,2024.1.5,None,2024-09-11 23h56.23.966212 +0530
93,0.5,20,73.9970382,,73.9829558,73.9970382,74.4972879,74.4972879,74.4972879,74.5656441,right,20,1,1,0.06728,,166269,1,2024-09-11_23h56.16.550,stair adaptive,2024.1.5,None,2024-09-11 23h56.23.966212 +0530
94,0.5,20,74.5797278,,74.5656965,74.5797278,75.0797035,75.0797035,75.0797035,75.1490562,left,-20,0,0,0.0525,,166269,1,2024-09-11_23h56.16.550,stair adaptive,2024.1.5,None,2024-09-11 23h56.23.966212 +0530
95,0.5,20,75.1628118,,75.1491156,75.1628118,75.6624794,75.6624794,75.6624794,75.7156864,left,-20,0,0,0.0428529,,166269,1,2024-09-11_23h56.16.550,stair adaptive,2024.1.5,None,2024-09-11 23h56.23.966212 +0530
96,0.5,20,75.7289654,,75.7157809,75.7289654,76.2282722,76.2282722,76.2282722,76.315497,right,20,1,1,0.0765831,,166269,1,2024-09-11_23h56.16.550,stair adaptive,2024.1.5,None,2024-09-11 23h56.23.966212 +0530
97,0.5,20,76.3282261,,76.3155799,76.3282261,76.827849,76.827849,76.827849,77.0507156,left,-20,0,0,0.2060337,,166269,1,2024-09-11_23h56.16.550,stair adaptive,2024.1.5,None,2024-09-11 23h56.23.966212 +0530
98,0.5,20,77.0614113,,77.0508263,77.0614113,77.560851,77.560851,77.560851,77.715452,left,-20,0,0,0.1445625,,166269,1,2024-09-11_23h56.16.550,stair adaptive,2024.1.5,None,2024-09-11 23h56.23.966212 +0530
99,0.5,20,77.7271214,,77.7155303,77.7271214,78.2265563,78.2265563,78.2265563,78.312486,right,20,1,1,0.0766866,,166269,1,2024-09-11_23h56.16.550,stair adaptive,2024.1.5,None,2024-09-11 23h56.23.966212 +0530
,,,,,,,,,,,,,,,,,,,,,,,
,,,,,,,,,1,20,,,,,,,,,,,,,
,,,,,,,,,,20,,,,,,,,,,,,,
,,,,,,,,,,-20,,,,,,,,,,,,,
,,,,,,,,,,20,,,,,,,,,,,,,
,,,,,,,,,,20,,,,,,,,,,,,,
,,,,,,,,,,,,,,,,,,,,,,,
,,,,,,,,treshcode ,12,,,,,,,,,,,,,,
